#  E (eV)   dos(E)     Int dos(E) EFermi =   13.329 eV
   5.000  0.6955E-01  0.6955E-02
   5.100  0.1699E+01  0.1768E+00
   5.200  0.4311E+01  0.6079E+00
   5.300  0.6096E+01  0.1218E+01
   5.400  0.5365E+01  0.1754E+01
   5.500  0.2752E+01  0.2029E+01
   5.600  0.5621E+00  0.2085E+01
   5.700  0.3991E+00  0.2125E+01
   5.800  0.2104E+01  0.2336E+01
   5.900  0.4079E+01  0.2744E+01
   6.000  0.4507E+01  0.3194E+01
   6.100  0.3069E+01  0.3501E+01
   6.200  0.1135E+01  0.3615E+01
   6.300 -0.1978E-02  0.3614E+01
   6.400 -0.2551E+00  0.3589E+01
   6.500 -0.1560E+00  0.3573E+01
   6.600 -0.5425E-01  0.3568E+01
   6.700 -0.1497E-01  0.3566E+01
   6.800 -0.1564E-01  0.3565E+01
   6.900 -0.5358E-01  0.3559E+01
   7.000 -0.1405E+00  0.3545E+01
   7.100 -0.2102E+00  0.3524E+01
   7.200 -0.1088E-01  0.3523E+01
   7.300  0.7484E+00  0.3598E+01
   7.400  0.1988E+01  0.3797E+01
   7.500  0.3352E+01  0.4132E+01
   7.600  0.4950E+01  0.4627E+01
   7.700  0.7220E+01  0.5349E+01
   7.800  0.1007E+02  0.6356E+01
   7.900  0.1350E+02  0.7706E+01
   8.000  0.1792E+02  0.9498E+01
   8.100  0.2141E+02  0.1164E+02
   8.200  0.2000E+02  0.1364E+02
   8.300  0.1366E+02  0.1501E+02
   8.400  0.8064E+01  0.1581E+02
   8.500  0.8440E+01  0.1666E+02
   8.600  0.1434E+02  0.1809E+02
   8.700  0.2054E+02  0.2014E+02
   8.800  0.2284E+02  0.2243E+02
   8.900  0.2252E+02  0.2468E+02
   9.000  0.2277E+02  0.2696E+02
   9.100  0.2325E+02  0.2928E+02
   9.200  0.2229E+02  0.3151E+02
   9.300  0.2148E+02  0.3366E+02
   9.400  0.2443E+02  0.3610E+02
   9.500  0.3082E+02  0.3918E+02
   9.600  0.3423E+02  0.4261E+02
   9.700  0.2943E+02  0.4555E+02
   9.800  0.2003E+02  0.4755E+02
   9.900  0.1517E+02  0.4907E+02
  10.000  0.2010E+02  0.5108E+02
  10.100  0.3174E+02  0.5425E+02
  10.200  0.4198E+02  0.5845E+02
  10.300  0.4442E+02  0.6289E+02
  10.400  0.3809E+02  0.6670E+02
  10.500  0.2621E+02  0.6932E+02
  10.600  0.1432E+02  0.7076E+02
  10.700  0.8922E+01  0.7165E+02
  10.800  0.1401E+02  0.7305E+02
  10.900  0.2581E+02  0.7563E+02
  11.000  0.3333E+02  0.7896E+02
  11.100  0.2875E+02  0.8184E+02
  11.200  0.1600E+02  0.8344E+02
  11.300  0.5113E+01  0.8395E+02
  11.400  0.1067E+01  0.8406E+02
  11.500  0.1434E+01  0.8420E+02
  11.600  0.2011E+01  0.8440E+02
  11.700  0.1244E+01  0.8452E+02
  11.800 -0.1201E-01  0.8452E+02
  11.900 -0.3860E+00  0.8448E+02
  12.000  0.1204E+01  0.8460E+02
  12.100  0.4851E+01  0.8509E+02
  12.200  0.8487E+01  0.8594E+02
  12.300  0.9048E+01  0.8684E+02
  12.400  0.6038E+01  0.8745E+02
  12.500  0.2177E+01  0.8766E+02
  12.600 -0.4139E-01  0.8766E+02
  12.700 -0.5263E+00  0.8761E+02
  12.800 -0.3956E+00  0.8757E+02
  12.900 -0.4443E+00  0.8752E+02
  13.000 -0.8439E+00  0.8744E+02
  13.100 -0.9256E+00  0.8735E+02
  13.200  0.1225E+01  0.8747E+02
  13.300  0.7297E+01  0.8820E+02
  13.400  0.1512E+02  0.8971E+02
  13.500  0.1858E+02  0.9157E+02
  13.600  0.1439E+02  0.9301E+02
  13.700  0.6604E+01  0.9367E+02
  13.800  0.1422E+01  0.9381E+02
  13.900  0.5359E+00  0.9386E+02
  14.000  0.1487E+01  0.9401E+02
  14.100  0.1824E+01  0.9420E+02
  14.200  0.1160E+01  0.9431E+02
  14.300  0.3311E+00  0.9434E+02
  14.400 -0.7529E-01  0.9434E+02
  14.500 -0.1201E+00  0.9432E+02
  14.600 -0.5981E-01  0.9432E+02
  14.700 -0.1822E-01  0.9432E+02
  14.800 -0.3807E-02  0.9432E+02
  14.900 -0.5697E-03  0.9432E+02
  15.000 -0.6232E-04  0.9432E+02
  15.100 -0.5237E-05  0.9432E+02
  15.200 -0.3791E-05  0.9432E+02
  15.300 -0.4634E-04  0.9432E+02
  15.400 -0.4561E-03  0.9432E+02
  15.500 -0.3294E-02  0.9432E+02
  15.600 -0.1714E-01  0.9431E+02
  15.700 -0.6206E-01  0.9431E+02
  15.800 -0.1432E+00  0.9429E+02
  15.900 -0.1439E+00  0.9428E+02
  16.000  0.2616E+00  0.9431E+02
  16.100  0.1324E+01  0.9444E+02
  16.200  0.2613E+01  0.9470E+02
  16.300  0.3099E+01  0.9501E+02
  16.400  0.2321E+01  0.9524E+02
  16.500  0.1001E+01  0.9534E+02
  16.600  0.9964E-01  0.9535E+02
  16.700 -0.1663E+00  0.9533E+02
  16.800 -0.1221E+00  0.9532E+02
  16.900 -0.4654E-01  0.9532E+02
  17.000 -0.1167E-01  0.9532E+02
  17.100 -0.2059E-02  0.9532E+02
  17.200 -0.2632E-03  0.9532E+02
  17.300 -0.2476E-04  0.9532E+02
  17.400 -0.1735E-05  0.9532E+02
  17.500 -0.2201E-06  0.9532E+02
  17.600 -0.2665E-05  0.9532E+02
  17.700 -0.4082E-04  0.9532E+02
  17.800 -0.4657E-03  0.9532E+02
  17.900 -0.3919E-02  0.9532E+02
  18.000 -0.2400E-01  0.9531E+02
  18.100 -0.1044E+00  0.9530E+02
  18.200 -0.3054E+00  0.9527E+02
  18.300 -0.5102E+00  0.9522E+02
  18.400 -0.4149E-01  0.9522E+02
  18.500  0.2148E+01  0.9543E+02
  18.600  0.5880E+01  0.9602E+02
  18.700  0.8554E+01  0.9688E+02
  18.800  0.7657E+01  0.9764E+02
  18.900  0.4844E+01  0.9813E+02
  19.000  0.4945E+01  0.9862E+02
  19.100  0.9697E+01  0.9959E+02
  19.200  0.1455E+02  0.1010E+03
  19.300  0.1398E+02  0.1024E+03
  19.400  0.8395E+01  0.1033E+03
  19.500  0.2817E+01  0.1036E+03
  19.600  0.2713E+00  0.1036E+03
  19.700 -0.1035E+00  0.1036E+03
  19.800 -0.8106E-02  0.1036E+03
  19.900 -0.2083E-01  0.1036E+03
  20.000 -0.5447E-01  0.1036E+03
  20.100 -0.4809E-01  0.1036E+03
  20.200 -0.4271E-01  0.1036E+03
  20.300 -0.7705E-01  0.1036E+03
  20.400 -0.1278E+00  0.1035E+03
  20.500 -0.3483E-01  0.1035E+03
  20.600  0.4632E+00  0.1036E+03
  20.700  0.1352E+01  0.1037E+03
  20.800  0.2031E+01  0.1039E+03
  20.900  0.1938E+01  0.1041E+03
  21.000  0.1594E+01  0.1043E+03
  21.100  0.2175E+01  0.1045E+03
  21.200  0.3686E+01  0.1049E+03
  21.300  0.4542E+01  0.1053E+03
  21.400  0.3607E+01  0.1057E+03
  21.500  0.1678E+01  0.1058E+03
  21.600  0.2376E+00  0.1059E+03
  21.700 -0.2402E+00  0.1058E+03
  21.800 -0.1968E+00  0.1058E+03
  21.900 -0.7891E-01  0.1058E+03
  22.000 -0.2058E-01  0.1058E+03
  22.100 -0.3762E-02  0.1058E+03
  22.200 -0.4971E-03  0.1058E+03
  22.300 -0.4826E-04  0.1058E+03
  22.400 -0.3477E-05  0.1058E+03
  22.500 -0.1871E-06  0.1058E+03
  22.600 -0.7550E-08  0.1058E+03
  22.700 -0.2292E-09  0.1058E+03
  22.800 -0.5247E-11  0.1058E+03
  22.900 -0.9075E-13  0.1058E+03
  23.000 -0.1187E-14  0.1058E+03
  23.100 -0.1177E-16  0.1058E+03
  23.200 -0.8842E-19  0.1058E+03
  23.300 -0.5040E-21  0.1058E+03
  23.400 -0.2181E-23  0.1058E+03
  23.500 -0.7168E-26  0.1058E+03
  23.600 -0.1790E-28  0.1058E+03
  23.700 -0.3400E-31  0.1058E+03
  23.800 -0.4910E-34  0.1058E+03
  23.900 -0.5394E-37  0.1058E+03
  24.000 -0.4509E-40  0.1058E+03
  24.100 -0.2869E-43  0.1058E+03
  24.200 -0.1390E-46  0.1058E+03
  24.300 -0.5125E-50  0.1058E+03
  24.400 -0.1439E-53  0.1058E+03
  24.500 -0.3079E-57  0.1058E+03
  24.600 -0.5018E-61  0.1058E+03
  24.700 -0.6229E-65  0.1058E+03
  24.800 -0.5893E-69  0.1058E+03
  24.900 -0.4248E-73  0.1058E+03
  25.000 -0.2334E-77  0.1058E+03
