# E (eV)  dos(E)    pdos(E)
  15.000 -0.623E-04 -0.621E-04
  15.100 -0.524E-05 -0.522E-05
  15.200 -0.379E-05 -0.375E-05
  15.300 -0.463E-04 -0.459E-04
  15.400 -0.456E-03 -0.452E-03
  15.500 -0.329E-02 -0.326E-02
  15.600 -0.171E-01 -0.170E-01
  15.700 -0.621E-01 -0.614E-01
  15.800 -0.143E+00 -0.142E+00
  15.900 -0.144E+00 -0.142E+00
  16.000  0.262E+00  0.259E+00
  16.100  0.132E+01  0.131E+01
  16.200  0.261E+01  0.259E+01
  16.300  0.310E+01  0.307E+01
  16.400  0.232E+01  0.230E+01
  16.500  0.100E+01  0.991E+00
  16.600  0.996E-01  0.986E-01
  16.700 -0.166E+00 -0.165E+00
  16.800 -0.122E+00 -0.121E+00
  16.900 -0.465E-01 -0.461E-01
  17.000 -0.117E-01 -0.116E-01
  17.100 -0.206E-02 -0.204E-02
  17.200 -0.263E-03 -0.261E-03
  17.300 -0.248E-04 -0.245E-04
  17.400 -0.173E-05 -0.172E-05
  17.500 -0.220E-06 -0.217E-06
  17.600 -0.267E-05 -0.263E-05
  17.700 -0.408E-04 -0.402E-04
  17.800 -0.466E-03 -0.459E-03
  17.900 -0.392E-02 -0.386E-02
  18.000 -0.240E-01 -0.237E-01
  18.100 -0.104E+00 -0.103E+00
  18.200 -0.305E+00 -0.301E+00
  18.300 -0.510E+00 -0.503E+00
  18.400 -0.415E-01 -0.408E-01
  18.500  0.215E+01  0.212E+01
  18.600  0.588E+01  0.580E+01
  18.700  0.855E+01  0.843E+01
  18.800  0.766E+01  0.755E+01
  18.900  0.484E+01  0.477E+01
  19.000  0.495E+01  0.484E+01
  19.100  0.970E+01  0.945E+01
  19.200  0.146E+02  0.142E+02
  19.300  0.140E+02  0.136E+02
  19.400  0.840E+01  0.818E+01
  19.500  0.282E+01  0.272E+01
  19.600  0.271E+00  0.225E+00
  19.700 -0.103E+00 -0.137E+00
  19.800 -0.811E-02 -0.279E-01
  19.900 -0.208E-01 -0.255E-01
  20.000 -0.545E-01 -0.516E-01
  20.100 -0.481E-01 -0.446E-01
  20.200 -0.427E-01 -0.394E-01
  20.300 -0.770E-01 -0.709E-01
  20.400 -0.128E+00 -0.118E+00
  20.500 -0.348E-01 -0.323E-01
  20.600  0.463E+00  0.425E+00
  20.700  0.135E+01  0.124E+01
  20.800  0.203E+01  0.185E+01
  20.900  0.194E+01  0.177E+01
  21.000  0.159E+01  0.148E+01
  21.100  0.217E+01  0.211E+01
  21.200  0.369E+01  0.363E+01
  21.300  0.454E+01  0.448E+01
  21.400  0.361E+01  0.355E+01
  21.500  0.168E+01  0.165E+01
  21.600  0.238E+00  0.234E+00
  21.700 -0.240E+00 -0.236E+00
  21.800 -0.197E+00 -0.194E+00
  21.900 -0.789E-01 -0.777E-01
  22.000 -0.206E-01 -0.203E-01
  22.100 -0.376E-02 -0.370E-02
  22.200 -0.497E-03 -0.489E-03
